   W                 M1+_3/2
 (MeV)      Re       DRe      Im       DIm
1125.893   13.566    0.677    3.174    0.862
1127.891   13.851    0.674    3.079    0.688
1129.903   14.369    0.673    3.112    0.830
1131.911   14.449    0.961    3.325    0.781
1133.915   14.273    0.962    3.240    0.813
1135.841   16.018    0.430    3.791    0.595
1135.916   16.059    0.432    3.803    0.603
1137.913   16.588    0.431    3.968    0.583
1139.396   16.234    0.437    3.849    0.644
1139.923   16.753    0.428    4.208    0.588
1141.905   16.902    0.884    4.044    0.813
1142.931   17.471    0.882    4.304    0.870
1143.916   17.684    0.882    4.299    0.826
1145.916   18.497    0.881    4.919    0.832
1146.464   18.113    0.889    4.769    0.922
1147.855   18.791    0.881    5.207    0.833
1149.905   20.529    0.420    6.818    0.519
1149.986   20.463    0.432    6.802    0.598
1151.886   20.456    0.422    7.069    0.507
1153.497   20.855    0.431    7.324    0.578
1153.880   20.870    0.420    7.504    0.493
1155.862   22.460    0.886    7.814    0.820
1157.006   21.604    0.640    7.709    0.642
1157.849   21.813    0.634    8.064    0.600
1159.841   22.164    0.635    8.380    0.598
1160.504   22.639    0.435    8.693    0.557
1161.821   22.802    0.425    8.959    0.510
1163.798   23.099    0.445    9.507    0.554
1163.991   22.927    0.445    9.411    0.563
1165.780   24.310    0.382   11.322    0.524
1167.468   24.559    0.397   11.747    0.553
1167.758   24.685    0.369   11.983    0.480
1169.733   24.925    0.367   12.764    0.468
1170.951   24.673    0.620   12.688    0.694
1171.680   24.662    0.627   12.979    0.701
1173.680   24.942    0.596   13.724    0.625
1174.336   25.336    0.438   14.589    0.571
1175.653   25.292    0.391   15.108    0.477
1177.631   25.670    0.390   16.202    0.470
1177.870   25.850    0.439   16.058    0.551
1179.597   25.947    0.392   17.067    0.470
1181.306   25.947    0.454   17.579    0.542
1181.560   25.777    0.391   17.928    0.461
1183.528   26.507    0.316   20.564    0.496
1184.748   26.487    0.406   21.125    0.567
1185.493   26.513    0.313   20.877    0.493
1187.454   26.424    0.422   21.529    0.633
1188.180   26.252    0.511   22.035    0.692
1189.412   26.194    0.427   22.647    0.631
1191.366   25.748    0.375   24.944    0.676
1191.603   25.336    0.506   25.180    0.735
1193.334   25.442    0.374   25.709    0.672
1195.015   24.959    0.528   26.407    0.731
1195.235   24.997    0.376   26.592    0.670
1197.235   22.646    0.610   29.682    0.606
1198.426   22.387    0.728   29.990    0.666
1199.193   22.120    0.613   30.674    0.604
1201.038   21.259    0.389   31.997    0.340
1201.819   20.761    0.592   32.258    0.428
1202.950   20.002    0.626   33.830    0.421
1204.852   19.062    0.638   34.306    0.421
1205.210   19.233    0.789   34.241    0.487
1206.751   17.774    0.508   35.129    0.382
1208.600   17.051    0.760   35.482    0.445
1208.646   16.965    0.518   35.501    0.380
1210.539   15.965    0.551   36.150    0.380
1211.987   15.561    0.818   35.922    0.437
1212.429   15.466    0.598   36.404    0.385
1214.315   12.268    0.634   37.495    0.262
1215.273   11.892    1.047   37.741    0.343
1216.207   11.286    0.664   37.651    0.257
1218.049   10.195    0.728   37.964    0.252
1218.712    9.831    1.141   38.246    0.300
1219.951    8.504    0.889   38.012    0.248
1221.826    7.663    0.818   37.829    0.236
1222.048    7.897    1.105   38.035    0.267
1223.690    5.261    0.900   38.228    0.194
1225.399    5.087    3.143   38.590    0.317
1225.560    4.169    1.026   38.274    0.191
1227.419    3.809    0.990   38.136    0.188
1228.733    1.413    1.208   37.530    0.206
1229.275    1.114    0.801   37.236    0.183
1231.128    0.083    1.553   36.990    0.339
1232.065   -0.347    1.871   37.545    0.237
1232.979   -0.807    1.589   36.753    0.335
1234.819   -1.508    0.819   36.175    0.266
1235.389   -1.696    1.591   36.596    0.324
1236.664   -2.457    0.985   36.096    0.282
1238.514   -4.373    0.770   35.116    0.210
1238.696   -4.212    1.302   35.300    0.288
1240.301   -4.417    0.729   34.147    0.233
1242.009   -5.116    1.233   34.512    0.317
1242.183   -5.219    0.733   33.795    0.238
1244.002   -7.737    0.579   32.378    0.256
1245.306   -8.102    0.936   32.467    0.334
1245.826   -8.333    0.524   31.900    0.255
1247.647   -8.960    0.552   31.884    0.261
1248.594   -9.284    0.813   31.258    0.350
1249.466   -8.789    0.555   30.964    0.270
1251.274   -9.630    0.840   30.630    0.402
1251.896  -10.060    1.044   30.498    0.477
1253.095   -9.868    0.836   29.904    0.406
1254.883  -10.236    0.545   28.610    0.306
1255.085  -10.527    0.696   28.812    0.361
1256.684  -10.584    0.514   28.187    0.299
1258.437  -10.693    0.672   26.993    0.403
1258.482  -10.431    0.473   26.711    0.327
1260.285  -10.674    0.473   26.021    0.333
1261.691  -11.578    0.569   25.749    0.365
1262.026  -11.344    0.393   25.440    0.291
1263.861  -11.389    1.090   24.622    0.670
1264.944  -12.005    0.500   24.929    0.351
1265.649  -12.341    0.556   24.351    0.451
1267.412  -12.465    0.556   24.290    0.449
1268.189  -12.748    0.642   24.233    0.496
1269.187  -12.555    0.372   23.298    0.367
1270.960  -12.778    0.357   22.946    0.363
1271.433  -13.062    0.455   22.489    0.418
1272.731  -13.216    0.363   22.099    0.376
1274.477  -12.833    0.413   20.453    0.315
1274.661  -13.399    0.467   20.446    0.361
1276.250  -12.876    0.412   19.898    0.320
1278.006  -13.157    0.355   19.790    0.297
1279.752  -12.988    0.368   18.939    0.319
1281.108  -13.197    0.526   18.658    0.415
1281.510  -12.763    0.490   18.314    0.382
1283.215  -12.863    0.923   17.849    0.796
1284.319  -13.551    0.421   18.233    0.357
1284.991  -13.089    0.396   17.861    0.333
1286.720  -13.134    0.423   17.685    0.359
1287.522  -13.339    0.419   18.077    0.347
1288.447  -13.035    0.349   16.681    0.299
1290.179  -13.097    0.343   16.404    0.298
1290.724  -12.951    0.380   16.462    0.326
1291.902  -12.962    0.346   15.545    0.321
1293.614  -12.768    0.384   15.016    0.350
1293.846  -12.701    0.399   15.070    0.357
1295.332  -12.570    0.378   14.818    0.340
1297.041  -12.800    0.396   14.878    0.356
1297.098  -12.765    0.402   14.979    0.355
1298.754  -12.804    0.426   14.707    0.373
1300.263  -12.782    0.429   14.580    0.377
1300.450  -12.747    0.424   14.496    0.374
1302.152  -12.723    0.420   14.338    0.373
1303.434  -12.693    0.636   13.697    0.519
1303.816  -12.676    0.629   13.263    0.525
1305.542  -12.671    0.621   13.197    0.513
1306.590  -12.610    0.634   12.803    0.532
1307.222  -12.589    0.621   12.803    0.516
1308.901  -12.591    0.617   12.627    0.513
1309.746  -12.176    0.422   11.665    0.388
1310.577  -12.268    0.411   11.840    0.374
1312.251  -12.174    0.409   11.724    0.371
1312.895  -12.072    0.417   11.406    0.385
1313.916  -12.002    0.407   11.368    0.374
1315.579  -12.185    0.535   11.192    0.416
1316.035  -12.198    0.543   10.951    0.435
1317.240  -12.455    0.816   10.879    0.869
1318.898  -12.416    0.718   10.548    0.500
1320.548  -12.254    0.722   10.278    0.513
1322.174  -11.831    0.515   10.011    0.449
1323.847  -11.785    0.513    9.838    0.450
1325.406  -11.955    0.671   10.373    0.527
1325.477  -11.785    0.684   10.273    0.555
1327.118  -11.705    0.684   10.053    0.558
1328.531  -11.837    0.671   10.036    0.531
1328.743  -11.685    0.691    9.925    0.577
1330.373  -11.373    0.528    9.039    0.493
1331.557  -11.397    0.502    8.919    0.441
1331.987  -11.245    0.516    8.846    0.470
1333.606  -11.150    0.515    8.634    0.472
1334.732  -11.103    0.505    8.490    0.446
1335.217  -11.076    0.521    8.635    0.470
1336.825  -11.042    0.695    8.513    0.830
1337.807  -10.966    0.679    8.217    0.838
1338.438  -11.017    0.678    8.245    0.835
1340.000  -10.885    0.694    8.185    0.594
1340.896  -10.748    0.677    8.124    0.545
1341.631  -10.769    0.810    8.133    0.854
1343.211  -10.801    0.682    8.092    0.565
1343.972  -11.061    0.666    7.958    0.530
1344.809  -10.699    0.685    7.984    0.572
1346.378   -9.781    0.494    7.771    0.486
1347.040   -9.972    0.466    7.673    0.434
1347.959   -9.835    0.475    7.711    0.448
1349.531   -9.683    0.463    7.421    0.467
1350.101   -9.563    0.608    7.476    0.805
1351.095   -9.391    0.464    7.490    0.483
1352.663   -9.362    0.601    7.294    0.786
1353.156   -9.439    0.602    7.348    0.789
1354.223   -9.242    0.462    7.252    0.485
1355.767   -9.612    0.629    6.557    0.747
1356.203   -9.702    0.490    6.523    0.439
1357.296   -9.751    0.623    6.564    0.756
1358.864   -9.519    0.618    6.381    0.740
1359.244   -9.682    0.612    6.129    0.772
1360.410   -9.429    0.610    5.721    0.759
1361.954   -9.150    0.598    5.824    0.744
1362.285   -9.232    0.589    5.788    0.752
1363.469   -9.094    0.592    5.741    0.749
1364.996   -8.995    0.489    5.625    0.500
1366.528   -9.427    0.585    5.587    0.741
1368.030   -9.188    0.501    5.632    0.511
1368.264   -9.404    0.528    5.690    0.594
1369.545   -9.224    0.574    5.283    0.721
1371.065   -9.071    0.593    5.812    0.721
1371.353   -9.215    0.470    5.572    0.423
1372.556   -8.993    0.589    5.732    0.713
1374.032   -8.948    0.583    5.623    0.717
1374.353   -8.766    0.573    5.431    0.707
1375.561   -8.876    0.560    5.101    0.686
1377.034   -8.828    0.563    5.204    0.672
1377.347   -8.512    0.432    4.633    0.412
1378.518   -8.410    0.531    4.803    0.664
1379.994   -8.150    0.505    4.829    0.592
1380.341   -8.023    0.437    4.790    0.393
1381.483   -7.786    0.433    4.580    0.457
1382.928   -8.089    0.433    4.303    0.533
1383.329   -7.664    0.470    4.486    0.405
1384.413   -8.132    0.495    4.694    0.480
1385.863   -7.973    0.499    4.643    0.487
1386.310   -7.640    0.468    4.465    0.400
1387.318   -7.594    0.497    4.417    0.519
1388.771   -7.381    0.462    4.325    0.511
1389.278   -7.280    0.430    4.229    0.389
1390.183   -7.325    0.501    4.217    0.611
1391.660   -7.653    0.460    4.408    0.474
1392.246   -7.175    0.431    4.234    0.389
1393.088   -7.491    0.514    4.635    0.512
1394.522   -7.445    0.509    4.327    0.563
1395.202   -7.199    0.475    4.432    0.403
1395.941   -7.507    0.512    4.553    0.518
1397.359   -6.787    0.480    3.773    0.519
1398.158   -6.716    0.404    3.786    0.341
1398.788   -6.671    0.478    3.737    0.514
1400.189   -7.046    0.468    3.577    0.535
1401.107   -6.791    0.401    3.551    0.344
1401.589   -6.933    0.478    3.571    0.532
1403.001   -6.687    0.545    3.452    0.550
1404.371   -6.779    0.529    3.377    0.560
1405.787   -6.870    0.520    3.253    0.557
1407.168   -6.926    0.493    3.290    0.515
1408.548   -6.867    0.494    3.223    0.530
1409.892   -6.670    0.511    3.211    0.375
1409.919   -6.697    0.558    3.278    0.538
1411.296   -6.631    0.558    3.251    0.535
1412.658   -6.500    0.560    3.231    0.527
1412.811   -6.551    0.512    3.162    0.378
1414.019   -6.289    0.395    3.395    0.488
1415.379   -6.428    0.387    3.391    0.501
1416.730   -6.325    0.387    3.387    0.493
1418.048   -5.826    0.397    2.716    0.503
1418.623   -5.852    0.341    2.718    0.334
1419.417   -5.841    0.400    2.744    0.502
1420.745   -5.805    0.401    2.533    0.514
1421.517   -5.266    0.354    2.579    0.305
1422.078   -5.379    0.392    2.469    0.436
1423.397   -5.485    0.575    2.060    0.553
1424.722   -5.267    0.576    2.161    0.504
1426.038   -5.287    0.580    2.137    0.512
1427.294   -5.274    0.540    2.233    0.384
1427.347   -4.784    0.521    2.215    0.430
1428.654   -4.949    0.535    2.045    0.450
1429.961   -4.646    0.479    2.228    0.422
1430.171   -4.809    0.447    2.122    0.373
1431.226   -4.664    0.503    2.158    0.444
1432.537   -4.478    0.452    2.315    0.418
1433.035   -4.514    0.396    2.228    0.356
1433.814   -4.516    0.454    2.276    0.427
1435.096   -4.372    0.437    2.330    0.409
1435.913   -4.508    0.417    2.183    0.404
1436.370   -4.721    0.528    2.109    0.459
1437.650   -4.680    0.522    1.981    0.454
1438.902   -4.654    0.534    2.122    0.465
1440.160   -4.500    0.555    1.639    0.437
1441.424   -3.616    0.390    2.217    0.420
1441.612   -3.535    0.358    2.446    0.343
1442.647   -3.406    0.416    2.426    0.407
1443.902   -3.870    0.475    2.357    0.402
1444.441   -4.274    0.386    2.121    0.351
1445.142   -3.837    0.492    2.306    0.407
1446.998   -4.737    0.504    1.712    0.434
1447.277   -4.646    0.491    1.764    0.376
1449.453   -4.594    0.382    2.080    0.393
1450.107   -3.821    0.342    1.953    0.323
1451.885   -4.531    0.372    2.045    0.368
1452.925   -3.807    0.340    1.739    0.327
1454.281   -3.755    0.358    2.668    0.344
1455.738   -3.899    0.323    2.450    0.292
1456.679   -3.914    0.369    2.429    0.303
1458.546   -3.492    0.404    2.015    0.388
1459.047   -2.859    0.413    1.783    0.416
1461.348   -2.827    0.403    1.784    0.384
1461.393   -3.204    0.433    2.185    0.394
1463.721   -3.183    0.337    2.207    0.352
1464.138   -2.837    0.293    1.666    0.344
1466.034   -2.912    0.313    1.605    0.393
1466.923   -2.508    0.348    1.201    0.369
1468.323   -2.523    0.361    1.086    0.406
1469.715   -2.418    0.277    1.342    0.325
1470.590   -2.470    0.298    1.287    0.376
1472.413   -2.294    0.282    1.261    0.333
1472.840   -2.168    0.332    1.197    0.377
1475.062   -2.590    0.352    1.957    0.356
1475.253   -1.997    0.320    1.541    0.341
1477.280   -2.501    0.351    1.915    0.357
1477.998   -2.364    0.299    1.368    0.388
1479.463   -2.027    0.322    1.390    0.438
1480.750   -2.197    0.259    1.672    0.345
1481.631   -2.257    0.288    1.701    0.398
1483.491   -2.047    0.243    1.746    0.298
1483.782   -2.120    0.281    1.754    0.366
1485.906   -2.119    0.281    1.655    0.378
1488.026   -2.400    0.299    1.790    0.402
1488.959   -2.245    0.255    1.704    0.331
1490.111   -2.368    0.292    1.755    0.397
1491.685   -2.291    0.259    1.807    0.329
1492.188   -2.368    0.295    1.819    0.389
1494.236   -2.353    0.277    1.813    0.397
1494.400   -2.268    0.231    1.833    0.333
1496.282   -2.407    0.279    1.793    0.403
1497.109   -1.921    0.226    1.479    0.293
1498.293   -2.151    0.276    1.543    0.381
1499.814   -1.351    0.252    1.278    0.367
1500.290   -1.581    0.326    1.402    0.461
1502.277   -1.445    0.317    1.419    0.469
1502.515   -1.271    0.262    1.446    0.383
1504.231   -1.670    0.316    1.218    0.458
1505.141   -1.464    0.254    1.296    0.374
1506.188   -1.569    0.307    1.364    0.493
1507.882   -1.521    0.235    1.184    0.339
1508.112   -1.669    0.306    1.191    0.465
1510.014   -1.609    0.298    1.223    0.490
1510.549   -2.475    0.220    1.037    0.314
1511.921   -2.635    0.307    0.952    0.455
1513.217   -2.472    0.232    0.456    0.373
1513.887   -1.827    0.314    0.637    0.467
1515.875   -1.224    0.251    1.188    0.390
1515.918   -1.347    0.286    1.215    0.460
1518.015   -1.917    0.272    1.245    0.381
1518.528   -1.741    0.237    1.135    0.310
1520.171   -1.907    0.272    1.085    0.381
1521.176   -1.830    0.237    0.963    0.307
1522.360   -1.714    0.306    0.349    0.492
1523.814   -1.500    0.276    0.507    0.433
1524.553   -1.655    0.305    0.502    0.480
1526.724   -1.515    0.276    0.206    0.385
1528.843   -1.455    0.276    0.301    0.381
1529.070   -1.292    0.239    0.495    0.299
1530.891   -1.047    0.282    0.561    0.372
1531.681   -0.799    0.250    0.658    0.296
1532.857   -0.980    0.278    0.544    0.361
1534.307   -0.678    0.252    0.583    0.282
1534.705   -0.852    0.282    0.763    0.334
1536.452   -0.974    0.280    0.315    0.333
1536.843   -0.829    0.249    0.385    0.277
1538.069   -0.951    0.284    0.292    0.352
1539.502   -0.792    0.245    0.275    0.283
1539.911   -0.961    0.285    0.171    0.340
1542.078   -0.958    0.232    0.743    0.272
1544.662   -0.713    0.302    0.620    0.366
1547.235   -0.732    0.268    0.486    0.295
1549.804   -0.456    0.280    0.412    0.319
1552.363   -0.499    0.274    0.786    0.277
1554.912   -0.379    0.257    0.753    0.265
1557.462   -0.349    0.235    0.398    0.199
1559.996   -0.332    0.232    0.386    0.194
1562.532   -0.208    0.234    0.792    0.206
1565.004   -0.153    0.229    0.653    0.210
1567.574   -0.226    0.220    0.720    0.201
1570.074   -0.384    0.267    0.231    0.219
1573.823   -0.552    0.263    0.315    0.221
1577.556   -0.389    0.239    0.512    0.199
1580.035   -0.374    0.230    0.566    0.198
1582.509   -0.480    0.230    0.646    0.200
1584.973   -0.301    0.209    0.401    0.209
1587.428   -0.306    0.200    0.473    0.207
1589.891   -0.133    0.209    0.854    0.194
1592.273   -0.556    0.201    0.707    0.192
1594.764   -0.450    0.191    0.636    0.188
1597.186   -0.359    0.179    0.573    0.180
1599.605   -0.349    0.179    0.571    0.178
1602.020   -0.322    0.171    0.611    0.175
1604.425   -0.374    0.159    0.721    0.167
1606.821    0.074    0.196    0.789    0.192
1609.213    0.062    0.196    0.762    0.190
1611.596    0.374    0.171    1.154    0.202
1613.970    0.410    0.183    1.030    0.183
1616.346    0.515    0.179    1.123    0.177
1618.654    0.430    0.203    0.991    0.196
1621.058    0.484    0.204    0.993    0.196
1623.395    0.464    0.181    1.108    0.180
1625.734    0.474    0.166    0.776    0.160
1628.064    0.505    0.170    0.830    0.160
1630.385    0.643    0.164    0.814    0.158
1632.702    0.615    0.163    0.749    0.183
1635.011    0.702    0.166    0.925    0.183
1637.311    0.686    0.168    0.693    0.192
1639.601    0.906    0.170    0.830    0.122
1641.894    1.166    0.176    0.737    0.116
1644.121    1.209    0.179    0.824    0.120
1646.442    1.146    0.180    0.870    0.119
1648.692    1.011    0.160    0.613    0.119
1650.950    1.056    0.158    0.663    0.120
1653.193    0.970    0.171    0.679    0.129
1655.433    0.858    0.167    0.854    0.115
1657.665    1.059    0.184    0.736    0.113
1659.888    0.998    0.185    0.761    0.112
1662.102    0.961    0.194    0.800    0.114
1664.308    1.049    0.189    0.782    0.111
1666.517    0.925    0.167    0.836    0.108
1668.660    1.259    0.229    1.026    0.130
1670.891    1.279    0.226    1.017    0.132
1673.063    1.211    0.227    1.030    0.131
1675.232    1.293    0.262    1.129    0.129
1677.392    0.787    0.247    0.984    0.134
1679.545    0.797    0.260    0.995    0.133
1681.694    0.653    0.210    0.999    0.126
1683.829    0.416    0.184    0.940    0.126
1685.957    0.258    0.171    0.935    0.130
1688.087    0.222    0.172    0.900    0.130
1690.159    0.455    0.196    0.851    0.129
1692.306    0.343    0.178    0.808    0.131
1694.400    0.332    0.176    0.794    0.131
1696.492    0.515    0.183    0.759    0.135
1698.576    0.521    0.183    0.491    0.121
1700.646    0.349    0.180    0.451    0.122
1702.714    0.103    0.175    0.448    0.114
1704.773    0.097    0.176    0.413    0.116
1706.825    0.056    0.170    0.406    0.115
1708.874    0.206    0.197    0.576    0.114
1710.872    0.468    0.188    0.367    0.101
1712.938    0.453    0.176    0.354    0.100
1714.953    0.484    0.172    0.344    0.100
1716.965    0.903    0.157    0.141    0.133
1718.969    0.734    0.160    0.180    0.130
1724.930    0.913    0.142    0.350    0.112
1726.904    0.863    0.146    0.376    0.110
1730.827    0.943    0.139    0.296    0.125
1735.678    1.447    0.137    0.140    0.130
1739.528    1.482    0.155    0.032    0.123
1745.241    1.684    0.222   -0.128    0.146
1749.001    1.704    0.206   -0.037    0.147
1753.678    1.795    0.234    0.516    0.147
1759.212    1.796    0.192    0.403    0.143
1763.766    1.707    0.175    0.444    0.144
1767.385    1.569    0.172    0.175    0.140
1770.965    1.586    0.171    0.232    0.142
1774.511    1.591    0.185    0.528    0.146
1778.029    1.650    0.204    0.364    0.137
1781.509    1.550    0.170    0.708    0.131
1784.971    1.625    0.156    0.472    0.134
1790.094    1.571    0.169   -0.192    0.123
1793.471    1.598    0.161   -0.154    0.121
1796.806    1.527    0.160   -0.226    0.116
1800.129    1.418    0.162    0.387    0.146
1803.415    1.424    0.161    0.331    0.149
1806.669    1.191    0.144   -0.003    0.120
1809.896    1.424    0.173   -0.224    0.122
1813.082    1.408    0.149   -0.232    0.132
1816.251    1.615    0.154   -0.189    0.134
1819.390    1.670    0.157   -0.193    0.136
1822.497    1.478    0.151   -0.331    0.132
1825.562    1.413    0.161   -0.099    0.154
1828.623    1.421    0.163   -0.127    0.157
1831.643    1.432    0.160   -0.102    0.151
1834.637    1.453    0.161   -0.092    0.154
1838.336    1.592    0.200   -0.103    0.159
1841.997    1.551    0.191   -0.124    0.150
1844.898    1.602    0.185   -0.077    0.147
1847.754    1.582    0.185   -0.753    0.119
1852.035    1.578    0.194   -0.728    0.123
1854.976    1.525    0.192   -0.773    0.118
1858.008    1.527    0.190   -0.789    0.116
1861.147    1.512    0.189   -0.784    0.115
1864.365    1.557    0.193   -0.715    0.119
1869.276    1.642    0.225   -0.843    0.092
1872.541    1.591    0.179   -0.888    0.116
1875.750    1.773    0.179   -0.804    0.106
1878.864    1.788    0.173   -0.764    0.102
1887.394    1.792    0.200   -0.789    0.102
1889.902    1.926    0.204   -0.749    0.122
1894.385    1.538    0.172   -0.618    0.096
